{
  "resourceType": "Bundle",
  "id": "4863d1fb-dc26-4680-bb35-018610d1749d",
  "meta": {
    "lastUpdated": "2021-04-06T08:30:00Z",
    "profile": [ "https://fhir.kbv.de/StructureDefinition/KBV_PR_ERP_Bundle|1.0.1" ]
  },
  "identifier": {
    "system": "https://gematik.de/fhir/NamingSystem/PrescriptionID",
    "value": "160.100.000.000.023.70"
  },
  "type": "document",
  "timestamp": "2021-11-12T15:30:00Z",
  "entry": [ {
    "fullUrl": "http://pvs.praxis.local/fhir/Composition/5877784c-ca07-4cc8-a58f-1517ddc24055",
    "resource": {
      "resourceType": "Composition",
      "id": "5877784c-ca07-4cc8-a58f-1517ddc24055",
      "meta": {
        "profile": [ "https://fhir.kbv.de/StructureDefinition/KBV_PR_ERP_Composition|1.0.1" ]
      },
      "extension": [ {
        "url": "https://fhir.kbv.de/StructureDefinition/KBV_EX_FOR_Legal_basis",
        "valueCoding": {
          "system": "https://fhir.kbv.de/CodeSystem/KBV_CS_SFHIR_KBV_STATUSKENNZEICHEN",
          "code": "00"
        }
      } ],
      "status": "final",
      "type": {
        "coding": [ {
          "system": "https://fhir.kbv.de/CodeSystem/KBV_CS_SFHIR_KBV_FORMULAR_ART",
          "code": "e16A"
        } ]
      },
      "subject": {
        "reference": "Patient/fc0d145b-09b4-4af6-b477-935c1862ac7f"
      },
      "date": "2021-11-12T15:00:00Z",
      "author": [ {
        "reference": "Practitioner/667ffd79-42a3-4002-b7ca-6b9098f20ccb",
        "type": "Practitioner"
      }, {
        "type": "Device",
        "identifier": {
          "system": "https://fhir.kbv.de/NamingSystem/KBV_NS_FOR_Pruefnummer",
          "value": "Y/410/2107/36/999"
        }
      } ],
      "title": "elektronische Arzneimittelverordnung",
      "custodian": {
        "reference": "Organization/5d3f4ac0-2b44-4d48-b363-e63efa72973b"
      },
      "section": [ {
        "code": {
          "coding": [ {
            "system": "https://fhir.kbv.de/CodeSystem/KBV_CS_ERP_Section_Type",
            "code": "Prescription"
          } ]
        },
        "entry": [ {
          "reference": "MedicationRequest/2979e8a3-352e-4d17-8e06-b356666e4daf"
        } ]
      }, {
        "code": {
          "coding": [ {
            "system": "https://fhir.kbv.de/CodeSystem/KBV_CS_ERP_Section_Type",
            "code": "Coverage"
          } ]
        },
        "entry": [ {
          "reference": "Coverage/69b3bbb6-2d37-4676-baf1-af97ba2ba4ad"
        } ]
      } ]
    }
  }, {
    "fullUrl": "http://pvs.praxis.local/fhir/MedicationRequest/2979e8a3-352e-4d17-8e06-b356666e4daf",
    "resource": {
      "resourceType": "MedicationRequest",
      "id": "2979e8a3-352e-4d17-8e06-b356666e4daf",
      "meta": {
        "profile": [ "https://fhir.kbv.de/StructureDefinition/KBV_PR_ERP_Prescription|1.0.1" ]
      },
      "extension": [ {
        "url": "https://fhir.kbv.de/StructureDefinition/KBV_EX_ERP_StatusCoPayment",
        "valueCoding": {
          "system": "https://fhir.kbv.de/CodeSystem/KBV_CS_ERP_StatusCoPayment",
          "code": "0"
        }
      }, {
        "url": "https://fhir.kbv.de/StructureDefinition/KBV_EX_ERP_EmergencyServicesFee",
        "valueBoolean": false
      }, {
        "url": "https://fhir.kbv.de/StructureDefinition/KBV_EX_ERP_BVG",
        "valueBoolean": false
      }, {
        "url": "https://fhir.kbv.de/StructureDefinition/KBV_EX_ERP_Multiple_Prescription",
        "extension": [ {
          "url": "Kennzeichen",
          "valueBoolean": false
        } ]
      } ],
      "status": "active",
      "intent": "order",
      "medicationReference": {
        "reference": "Medication/0d93504e-c6a7-47c1-8ad5-b0c5cf1b8920"
      },
      "subject": {
        "reference": "Patient/fc0d145b-09b4-4af6-b477-935c1862ac7f"
      },
      "authoredOn": "2021-11-12",
      "requester": {
        "reference": "Practitioner/667ffd79-42a3-4002-b7ca-6b9098f20ccb"
      },
      "insurance": [ {
        "reference": "Coverage/69b3bbb6-2d37-4676-baf1-af97ba2ba4ad"
      } ],
      "note": [ {
        "text": "Dokumentation aerztliche Ruecksprache"
      } ],
      "dosageInstruction": [ {
        "extension": [ {
          "url": "https://fhir.kbv.de/StructureDefinition/KBV_EX_ERP_DosageFlag",
          "valueBoolean": false
        } ]
      } ],
      "dispenseRequest": {
        "quantity": {
          "value": 1,
          "system": "http://unitsofmeasure.org",
          "code": "{Package}"
        }
      },
      "substitution": {
        "allowedBoolean": true
      }
    }
  }, {
    "fullUrl": "http://pvs.praxis.local/fhir/Medication/0d93504e-c6a7-47c1-8ad5-b0c5cf1b8920",
    "resource": {
      "resourceType": "Medication",
      "id": "0d93504e-c6a7-47c1-8ad5-b0c5cf1b8920",
      "meta": {
        "profile": [ "https://fhir.kbv.de/StructureDefinition/KBV_PR_ERP_Medication_FreeText|1.0.1" ]
      },
      "extension": [ {
        "url": "https://fhir.kbv.de/StructureDefinition/KBV_EX_ERP_Medication_Category",
        "valueCoding": {
          "system": "https://fhir.kbv.de/CodeSystem/KBV_CS_ERP_Medication_Category",
          "code": "00"
        }
      }, {
        "url": "https://fhir.kbv.de/StructureDefinition/KBV_EX_ERP_Medication_Vaccine",
        "valueBoolean": false
      } ],
      "code": {
        "coding": [ {
          "system": "https://fhir.kbv.de/CodeSystem/KBV_CS_ERP_Medication_Type",
          "code": "freitext"
        } ],
        "text": "Dekristol 20000 I.e."
      }
    }
  }, {
    "fullUrl": "http://pvs.praxis.local/fhir/Patient/fc0d145b-09b4-4af6-b477-935c1862ac7f",
    "resource": {
      "resourceType": "Patient",
      "id": "fc0d145b-09b4-4af6-b477-935c1862ac7f",
      "meta": {
        "profile": [ "https://fhir.kbv.de/StructureDefinition/KBV_PR_FOR_Patient|1.0.3" ]
      },
      "identifier": [ {
        "type": {
          "coding": [ {
            "system": "http://fhir.de/CodeSystem/identifier-type-de-basis",
            "code": "GKV"
          } ]
        },
        "system": "http://fhir.de/NamingSystem/gkv/kvid-10",
        "value": "X110433327"
      } ],
      "name": [ {
        "use": "official",
        "family": "Graf Freiherr von Schinder",
        "_family": {
          "extension": [ {
            "url": "http://fhir.de/StructureDefinition/humanname-namenszusatz",
            "valueString": "Graf Freiherr"
          }, {
            "url": "http://hl7.org/fhir/StructureDefinition/humanname-own-prefix",
            "valueString": "von"
          }, {
            "url": "http://hl7.org/fhir/StructureDefinition/humanname-own-name",
            "valueString": "Schinder"
          } ]
        },
        "given": [ "Lars" ],
        "prefix": [ "Prinzessin" ],
        "_prefix": [ {
          "extension": [ {
            "url": "http://hl7.org/fhir/StructureDefinition/iso21090-EN-qualifier",
            "valueCode": "AC"
          } ]
        } ]
      } ],
      "birthDate": "1964-04-04",
      "address": [ {
        "type": "both",
        "line": [ "Siegburger Str. 155" ],
        "_line": [ {
          "extension": [ {
            "url": "http://hl7.org/fhir/StructureDefinition/iso21090-ADXP-houseNumber",
            "valueString": "155"
          }, {
            "url": "http://hl7.org/fhir/StructureDefinition/iso21090-ADXP-streetName",
            "valueString": "Siegburger Str."
          } ]
        } ],
        "city": "Köln",
        "postalCode": "51105",
        "country": "D"
      } ]
    }
  }, {
    "fullUrl": "http://pvs.praxis.local/fhir/Practitioner/667ffd79-42a3-4002-b7ca-6b9098f20ccb",
    "resource": {
      "resourceType": "Practitioner",
      "id": "667ffd79-42a3-4002-b7ca-6b9098f20ccb",
      "meta": {
        "profile": [ "https://fhir.kbv.de/StructureDefinition/KBV_PR_FOR_Practitioner|1.0.3" ]
      },
      "identifier": [ {
        "type": {
          "coding": [ {
            "system": "http://terminology.hl7.org/CodeSystem/v2-0203",
            "code": "LANR"
          } ]
        },
        "system": "https://fhir.kbv.de/NamingSystem/KBV_NS_Base_ANR",
        "value": "987654423"
      } ],
      "name": [ {
        "use": "official",
        "family": "Schneider",
        "_family": {
          "extension": [ {
            "url": "http://hl7.org/fhir/StructureDefinition/humanname-own-name",
            "valueString": "Schneider"
          } ]
        },
        "given": [ "Emma" ],
        "prefix": [ "Dr. med." ],
        "_prefix": [ {
          "extension": [ {
            "url": "http://hl7.org/fhir/StructureDefinition/iso21090-EN-qualifier",
            "valueCode": "AC"
          } ]
        } ]
      } ],
      "qualification": [ {
        "code": {
          "coding": [ {
            "system": "https://fhir.kbv.de/CodeSystem/KBV_CS_FOR_Qualification_Type",
            "code": "00"
          } ]
        }
      }, {
        "code": {
          "text": "Fachärztin für Innere Medizin"
        }
      } ]
    }
  }, {
    "fullUrl": "http://pvs.praxis.local/fhir/Organization/5d3f4ac0-2b44-4d48-b363-e63efa72973b",
    "resource": {
      "resourceType": "Organization",
      "id": "5d3f4ac0-2b44-4d48-b363-e63efa72973b",
      "meta": {
        "profile": [ "https://fhir.kbv.de/StructureDefinition/KBV_PR_FOR_Organization|1.0.3" ]
      },
      "identifier": [ {
        "type": {
          "coding": [ {
            "system": "http://terminology.hl7.org/CodeSystem/v2-0203",
            "code": "BSNR"
          } ]
        },
        "system": "https://fhir.kbv.de/NamingSystem/KBV_NS_Base_BSNR",
        "value": "721111100"
      } ],
      "name": "MVZ",
      "telecom": [ {
        "system": "phone",
        "value": "0301234567"
      }, {
        "system": "fax",
        "value": "030123456789"
      }, {
        "system": "email",
        "value": "mvz@e-mail.de"
      } ],
      "address": [ {
        "type": "both",
        "line": [ "Herbert-Lewin-Platz 2" ],
        "_line": [ {
          "extension": [ {
            "url": "http://hl7.org/fhir/StructureDefinition/iso21090-ADXP-houseNumber",
            "valueString": "2"
          }, {
            "url": "http://hl7.org/fhir/StructureDefinition/iso21090-ADXP-streetName",
            "valueString": "Herbert-Lewin-Platz"
          } ]
        } ],
        "city": "Berlin",
        "postalCode": "10623",
        "country": "D"
      } ]
    }
  }, {
    "fullUrl": "http://pvs.praxis.local/fhir/Coverage/69b3bbb6-2d37-4676-baf1-af97ba2ba4ad",
    "resource": {
      "resourceType": "Coverage",
      "id": "69b3bbb6-2d37-4676-baf1-af97ba2ba4ad",
      "meta": {
        "profile": [ "https://fhir.kbv.de/StructureDefinition/KBV_PR_FOR_Coverage|1.0.3" ]
      },
      "extension": [ {
        "url": "http://fhir.de/StructureDefinition/gkv/besondere-personengruppe",
        "valueCoding": {
          "system": "https://fhir.kbv.de/CodeSystem/KBV_CS_SFHIR_KBV_PERSONENGRUPPE",
          "code": "00"
        }
      }, {
        "url": "http://fhir.de/StructureDefinition/gkv/dmp-kennzeichen",
        "valueCoding": {
          "system": "https://fhir.kbv.de/CodeSystem/KBV_CS_SFHIR_KBV_DMP",
          "code": "42"
        }
      }, {
        "url": "http://fhir.de/StructureDefinition/gkv/wop",
        "valueCoding": {
          "system": "https://fhir.kbv.de/CodeSystem/KBV_CS_SFHIR_ITA_WOP",
          "code": "38"
        }
      }, {
        "url": "http://fhir.de/StructureDefinition/gkv/versichertenart",
        "valueCoding": {
          "system": "https://fhir.kbv.de/CodeSystem/KBV_CS_SFHIR_KBV_VERSICHERTENSTATUS",
          "code": "1"
        }
      } ],
      "status": "active",
      "type": {
        "coding": [ {
          "system": "http://fhir.de/CodeSystem/versicherungsart-de-basis",
          "code": "GKV"
        } ]
      },
      "beneficiary": {
        "reference": "Patient/fc0d145b-09b4-4af6-b477-935c1862ac7f"
      },
      "payor": [ {
        "identifier": {
          "system": "http://fhir.de/NamingSystem/arge-ik/iknr",
          "value": "109500297"
        },
        "display": "IKK BB"
      } ]
    }
  } ]
}